IESNA:LM-63-2002
[TEST]23492     
[TESTLAB]LIGHTING SCIENCES, INC.                            
[ISSUEDATE] 3/ 4/2008
[MANUFAC]COOPER LIGHTING - CORELITE                                      
[LUMCAT]R1-WP-2N5-UNV-14-T1                                                             
[LUMINAIRE]WITH WHITE INTERIOR AND FROSTED LINEAR PRISMATIC PLASTIC LENS WITH ROUND PERF   
[LAMP]TWO SYLVANIA 28 WATT T5 LAMPS                                                   
[LAMPCAT]FP28/841. LUMEN RATING = 2600 LMS.                                              
[OTHER]ONE UNIVERSAL B228PUNV-C BALLAST OPERATING AT 120 VAC AND 60 WATTS              
[OTHER]LAMP COLD SPOT TEMPERATURE - 51.4 & 50.7 C
[OTHER]PAINT REFLECTIVITY - FIXTURE 75% TRAY 94%
TILT=NONE
2
      2600
1
37
5
1
1
  0.92
  3.92
  0.00
1
1
   60.0000
0 2.5 5 7.5 10 12.5 15 17.5 20 22.5 25 27.5 30 32.5 35 37.5
40 42.5 45 47.5 50 52.5 55 57.5 60 62.5 65 67.5 70 72.5 75
77.5 80 82.5 85 87.5 90
0 22.5 45 67.5 90
    1150.5     1132.0     1127.7     1120.4     1110.0     1096.9     1080.8     1061.6     1040.1     1016.0
     989.1      960.0      928.6      895.3      860.1      823.5      785.7      746.6      706.3      664.8
     622.7      579.6      535.8      491.8      447.3      402.8      358.2      313.3      268.5      223.6
     179.7      136.8       97.0       62.9       33.5       10.7        1.1
    1150.5     1140.2     1136.0     1129.2     1119.6     1107.1     1091.6     1073.3     1052.5     1029.4
    1003.6      975.6      945.5      913.2      878.9      843.4      806.1      767.3      727.5      687.3
     645.7      603.4      560.7      517.8      474.5      430.6      386.7      343.0      299.5      256.1
     212.5      168.1      119.5       72.9       39.5       16.3        2.7
    1150.5     1154.8     1151.3     1145.2     1137.4     1127.2     1113.9     1097.9     1079.3     1058.8
    1035.7     1010.2      982.5      952.8      921.1      888.0      852.6      815.2      776.7      737.3
     696.9      655.2      614.2      572.9      530.6      486.6      440.7      391.7      336.6      271.3
     207.7      155.9      118.9       87.2       53.2       23.3        4.9
    1150.5     1158.7     1155.9     1151.1     1144.8     1136.2     1124.6     1110.5     1094.9     1076.8
    1056.5     1033.5     1008.1      980.3      950.8      919.6      886.2      851.3      815.1      779.1
     742.2      702.6      661.5      617.7      571.3      521.3      462.6      389.5      316.6      253.5
     204.7      170.3      134.4       94.3       56.7       25.8        6.2
    1150.5     1160.1     1157.1     1153.6     1148.0     1139.5     1128.9     1116.8     1102.0     1084.9
    1065.6     1043.9     1018.9      991.8      962.7      932.2      900.0      866.3      832.3      797.3
     759.6      720.4      677.8      632.3      583.3      526.6      454.7      378.2      309.4      250.6
     211.0      177.0      136.8       95.5       58.2       27.0        7.2
