IESNA:LM-63-2002
[TEST]23490     
[TESTLAB]LIGHTING SCIENCES, INC.                            
[ISSUEDATE] 3/ 5/2008
[MANUFAC]COOPER LIGHTING - CORELITE
[LUMCAT]R1-WP-2N5-1C-UNV-22-T1                                                          
[LUMINAIRE]WITH WHITE INTERIOR AND FROSTED LINEAR PRISMATIC PLASTIC LENS WITH ROUND PERF   
[LAMP]TWO SYLVANIA 14 WATT T5 LAMPS                                                   
[LAMPCAT]FP14/841. LUMEN RATING = 1200 LMS.                                              
[OTHER]ONE UNIVERSAL B228PUNV-C BALLAST OPERATING AT 120 VAC AND 31 WATTS              
[OTHER]LAMP COLD SPOT TEMPERATURE - 48.2 & 46.8 C
[OTHER]PAINT REFLECTIVITY - FIXTURE 93% TRAY 93%
TILT=NONE
2
      1200
1
37
5
1
1
  1.95
  1.91
  0.00
1
1
   31.0000
0 2.5 5 7.5 10 12.5 15 17.5 20 22.5 25 27.5 30 32.5 35 37.5
40 42.5 45 47.5 50 52.5 55 57.5 60 62.5 65 67.5 70 72.5 75
77.5 80 82.5 85 87.5 90
0 22.5 45 67.5 90
     468.7      468.1      466.1      462.8      458.4      452.9      445.8      437.6      428.2      418.0
     406.7      394.3      380.9      366.5      351.5      335.9      319.6      303.1      286.2      268.9
     251.2      233.0      214.9      196.7      178.3      159.9      142.0      124.2      105.8       87.8
      70.2       53.4       38.2       25.8       15.2        6.3        0.8
     468.7      468.4      466.6      463.5      459.6      454.4      447.7      440.0      431.2      421.4
     410.5      398.5      385.8      372.1      357.8      342.8      327.2      311.0      294.6      277.9
     260.6      242.9      225.5      208.0      190.5      173.2      156.0      139.0      122.2      105.9
      90.7       76.3       61.9       45.2       25.7        9.4        1.4
     468.7      468.4      466.9      464.6      461.3      457.2      451.8      445.3      437.8      429.5
     420.4      410.0      398.8      386.7      374.0      360.8      347.2      332.8      318.1      303.5
     288.4      273.0      258.1      243.5      229.5      215.7      202.4      189.5      177.8      167.2
     155.5      140.2      118.1       83.6       42.6       15.3        2.9
     468.7      467.8      466.7      465.1      462.7      459.5      455.4      450.1      444.0      437.1
     429.5      420.7      411.3      401.0      390.3      379.1      367.4      355.0      343.0      331.0
     319.1      307.2      295.5      284.5      274.1      264.3      255.6      248.1      240.6      231.0
     217.6      196.5      161.6      103.2       46.6       20.2        3.6
     468.7      467.5      466.6      465.3      463.4      460.5      457.2      452.4      447.0      441.0
     434.0      426.2      417.4      407.9      397.7      387.4      376.5      365.7      354.8      344.2
     333.7      322.9      312.8      303.2      294.0      285.7      278.7      272.5      265.3      255.6
     240.9      217.4      177.3      107.9       47.8       23.0        3.8
