IESNA:LM-63-1995
[TEST]     23305
[MANUFAC]COOPER LIGHTING - CORELITE
[LUMCAT]R2-WB-2N5-24                                                                    
[LUMINAIRE]WITH WHITE INTERIOR AND CLEAR LINEAR PRISMATIC PLASTIC LENS WITH WHITE BAFFLE   
[LAMP]TWO SYLVANIA 28 WATT T5 LAMPS                                                   
[LAMPCAT]FP28/841. LUMEN RATING = 2600 LMS.                                              
[OTHER]ONE UNIVERSAL B228PUNV-C BALLAST OPERATING AT 120 VAC AND 60 WATTS              
[OTHER]LAMP COLD SPOT TEMPERATURE - 55.5 & 57.3 C
[OTHER]PAINT REFLECTIVITY - FIXTURE 92% TRAY 93%
TILT=NONE
2
      2600
1
37
5
1
1
  1.95
  3.92
  0.00
1
1
   60.0000
0 2.5 5 7.5 10 12.5 15 17.5 20 22.5 25 27.5 30 32.5 35 37.5
40 42.5 45 47.5 50 52.5 55 57.5 60 62.5 65 67.5 70 72.5 75
77.5 80 82.5 85 87.5 90
0 22.5 45 67.5 90
    1216.1     1198.6     1193.9     1185.6     1173.2     1156.7     1135.4     1109.9     1080.1     1046.5
    1009.5      969.5      927.5      883.7      838.7      793.0      746.3      699.3      651.6      603.4
     555.5      507.8      460.5      414.9      371.8      331.1      292.9      255.7      218.4      180.6
     143.5      108.6       76.9       49.2       26.9       10.6        2.1
    1216.1     1207.0     1204.5     1198.6     1190.4     1177.7     1160.5     1139.5     1114.5     1086.3
    1056.2     1022.7      986.3      946.9      905.7      862.5      817.3      770.9      724.3      678.4
     630.2      579.7      527.8      476.7      427.5      381.5      339.3      299.8      262.4      228.7
     198.7      174.8      154.9      127.0       84.5       35.4        6.1
    1216.1     1222.7     1224.4     1225.6     1225.8     1221.8     1216.4     1207.5     1193.0     1176.8
    1157.4     1133.6     1106.9     1078.1     1045.9     1012.4      976.3      937.1      894.9      852.9
     809.9      763.3      714.3      662.9      615.1      569.5      527.0      491.7      465.5      439.4
     409.0      367.8      311.2      232.2      136.7       55.1       12.7
    1216.1     1226.3     1232.8     1240.1     1246.7     1253.9     1255.5     1254.1     1253.5     1249.1
    1241.9     1228.2     1213.1     1196.8     1179.0     1157.4     1132.3     1103.2     1072.9     1036.9
     992.8      941.1      892.4      849.0      814.3      779.1      744.5      712.7      680.5      639.1
     590.1      521.8      429.8      305.8      171.4       70.8       16.7
    1216.1     1228.6     1236.7     1247.6     1257.4     1266.7     1271.8     1277.7     1281.7     1283.4
    1279.5     1274.1     1267.1     1259.3     1248.0     1232.8     1213.9     1190.4     1161.5     1122.4
    1070.1     1019.5      975.8      943.9      916.9      885.7      850.1      816.6      778.7      723.5
     671.1      590.7      478.2      339.4      200.2       84.1       21.8
