IESNA:LM-63-1995
[TEST]     23298
[MANUFAC]COOPER LIGHTING - CORELITE
[LUMCAT]R2-WL-2N5-22                                                                    
[LUMINAIRE]WITH WHITE INTERIOR AND FROSTED LINEAR PRISMATIC PLASTIC LENS                   
[LAMP]TWO SYLVANIA 14 WATT T5 LAMPS                                                   
[LAMPCAT]FP14/841. LUMEN RATING = 1200 LMS.                                              
[OTHER]ONE UNIVERSAL B228PUNV-C BALLAST OPERATING AT 120 VAC AND 33 WATTS              
[OTHER]LAMP COLD SPOT TEMPERATURE - 40.7 & 39.9 C
[OTHER]PAINT REFLECTIVITY - FIXTURE 92% TRAY 84%
TILT=NONE
2
      1200
1
37
5
1
1
  1.95
  1.91
  0.00
1
1
   33.0000
0 2.5 5 7.5 10 12.5 15 17.5 20 22.5 25 27.5 30 32.5 35 37.5
40 42.5 45 47.5 50 52.5 55 57.5 60 62.5 65 67.5 70 72.5 75
77.5 80 82.5 85 87.5 90
0 22.5 45 67.5 90
     610.5      610.1      607.7      604.0      598.8      592.3      583.8      573.9      562.3      549.5
     535.4      520.0      503.2      485.2      466.3      446.7      426.2      404.9      383.1      361.0
     338.1      315.0      292.1      269.1      245.8      223.0      200.3      177.8      155.5      133.7
     112.0       91.2       71.1       51.2       32.2       14.1        2.1
     610.5      610.6      608.6      605.2      600.5      594.5      586.9      577.7      567.1      555.4
     542.4      528.1      512.3      495.4      477.4      458.9      439.5      419.0      398.1      376.9
     354.9      332.3      309.9      287.5      265.2      243.4      221.7      200.4      179.2      157.8
     136.6      115.5       94.0       71.0       46.0       20.2        3.5
     610.5      610.0      608.3      605.8      602.4      597.8      591.8      584.7      576.3      566.8
     556.6      544.7      531.7      517.5      502.5      486.6      469.8      452.0      433.6      415.5
     396.9      377.5      358.4      338.8      319.1      299.3      279.7      259.9      240.9      221.7
     201.1      178.8      152.4      116.0       70.7       30.3        5.7
     610.5      609.3      608.1      606.5      604.1      600.9      596.9      591.5      585.3      578.2
     570.5      561.1      550.9      539.5      527.1      514.3      501.0      486.8      472.2      456.9
     440.9      423.9      407.0      389.8      373.0      356.3      339.8      323.6      306.9      289.3
     269.4      245.2      209.0      150.3       89.0       39.1        8.0
     610.5      608.6      607.5      606.3      604.4      601.5      598.4      593.9      588.4      582.5
     575.4      567.3      557.9      547.5      536.3      524.7      512.7      500.0      486.4      472.0
     456.8      441.2      425.1      409.2      393.3      377.8      362.5      347.1      330.9      313.4
     293.4      267.8      224.3      157.3       95.0       42.7        9.1
