IESNA:LM-63-1995
[TEST]     23300
[MANUFAC]COOPER LIGHTING - CORELITE                                      
[LUMCAT]R2-WL-1N5-22                                                                    
[LUMINAIRE]WITH WHITE INTERIOR AND FROSTED LINEAR PRISMATIC PLASTIC LENS                   
[LAMP]ONE SYLVANIA 14 WATT T5 LAMP                                                    
[LAMPCAT]FP14/841. LUMEN RATING = 1200 LMS.                                              
[OTHER]ONE UNIVERSAL B228PUNV-C BALLAST OPERATING AT 120 VAC AND 17 WATTS              
[OTHER]LAMP COLD SPOT TEMPERATURE - 38.5 C
[OTHER]PAINT REFLECTIVITY - FIXTURE 92% TRAY 84%
TILT=NONE
1
      1200
1
37
5
1
1
  1.95
  1.91
  0.00
1
1
   17.0000
0 2.5 5 7.5 10 12.5 15 17.5 20 22.5 25 27.5 30 32.5 35 37.5
40 42.5 45 47.5 50 52.5 55 57.5 60 62.5 65 67.5 70 72.5 75
77.5 80 82.5 85 87.5 90
0 22.5 45 67.5 90
     343.0      343.1      342.0      339.9      337.1      333.6      328.7      323.7      317.6      310.6
     302.9      294.6      285.5      275.7      265.5      254.7      243.6      231.9      219.8      207.6
     194.7      181.7      168.7      155.6      142.7      129.6      116.6      103.6       90.8       78.1
      65.7       53.5       41.6       30.0       18.8        8.0        0.9
     343.0      344.2      343.1      341.3      338.8      335.7      331.6      326.7      321.1      314.8
     307.9      300.2      291.8      282.7      273.2      263.2      252.7      241.6      230.1      218.5
     206.3      193.6      181.1      168.5      155.7      142.8      129.9      117.0      104.2       91.6
      78.9       66.5       53.9       40.9       26.9       12.4        2.2
     343.0      342.3      341.5      340.3      338.5      336.4      333.4      329.9      325.8      321.1
     316.0      310.3      303.9      297.0      289.5      281.7      273.5      264.3      254.9      245.1
     235.0      224.0      213.4      202.3      191.1      179.5      167.7      155.8      143.9      131.8
     119.1      105.3       89.7       69.8       45.8       21.7        4.9
     343.0      341.8      341.3      340.7      339.7      338.4      336.9      334.5      331.9      329.0
     325.9      321.9      317.8      313.2      307.9      302.4      296.3      289.7      282.7      275.7
     267.9      259.4      250.7      241.6      232.4      222.7      212.6      202.2      191.1      179.3
     166.1      150.9      130.2       99.7       65.1       32.4        8.5
     343.0      341.6      341.0      340.6      340.1      338.9      338.0      336.3      334.2      332.2
     329.7      326.8      323.6      319.8      315.4      310.9      305.9      300.4      294.9      288.7
     282.0      274.7      266.8      258.5      249.9      240.9      231.5      221.6      211.0      199.4
     186.3      170.4      145.8      110.8       73.3       37.4       11.1
