IESNA:LM-63-1995
[TEST]     23304
[MANUFAC]COOPER LIGHTING - CORELITE
[LUMCAT]R2-WL-2N5-24                                                                    
[LUMINAIRE]WITH WHITE INTERIOR AND FROSTED LINEAR PRISMATIC PLASTIC LENS                   
[LAMP]TWO SYLVANIA 28 WATT T5 LAMPS                                                   
[LAMPCAT]FP28/841. LUMEN RATING = 2600 LMS.                                              
[OTHER]ONE UNIVERSAL B228PUNV-C BALLAST OPERATING AT 120 VAC AND 59 WATTS              
[OTHER]LAMP COLD SPOT TEMPERATURE - 58.8 & 57.1 C
[OTHER]PAINT REFLECTIVITY - FIXTURE 92% TRAY 93%
TILT=NONE
2
      2600
1
37
5
1
1
  1.95
  3.92
  0.00
1
1
   59.0000
0 2.5 5 7.5 10 12.5 15 17.5 20 22.5 25 27.5 30 32.5 35 37.5
40 42.5 45 47.5 50 52.5 55 57.5 60 62.5 65 67.5 70 72.5 75
77.5 80 82.5 85 87.5 90
0 22.5 45 67.5 90
    1260.4     1243.0     1238.5     1231.0     1220.3     1206.6     1189.6     1169.7     1146.8     1121.3
    1092.9     1061.9     1028.4      992.4      954.2      914.6      873.5      831.0      787.2      742.5
     697.0      650.5      603.4      556.9      509.9      463.0      416.1      369.3      323.3      278.2
     234.1      191.2      149.1      108.6       69.6       32.2        6.9
    1260.4     1251.0     1246.9     1240.1     1230.6     1217.8     1202.0     1183.6     1162.3     1138.4
    1112.0     1082.8     1051.3     1017.1      981.0      943.2      903.2      862.0      819.4      776.6
     731.8      685.7      639.6      593.5      547.1      501.1      455.6      411.0      367.5      325.0
     285.2      250.5      215.9      173.8      118.5       55.5       12.8
    1260.4     1265.7     1262.4     1257.1     1250.0     1240.4     1228.2     1213.3     1196.0     1176.9
    1155.1     1130.4     1103.7     1074.9     1043.4     1010.8      975.7      938.1      899.6      860.3
     819.9      778.8      738.4      696.8      655.4      614.1      575.2      540.2      509.8      479.4
     444.8      401.7      343.9      260.5      160.3       68.5       14.9
    1260.4     1267.6     1265.4     1261.7     1256.9     1250.3     1241.4     1229.8     1217.6     1202.6
    1186.2     1166.6     1145.2     1120.9     1095.1     1067.3     1037.3     1006.2      974.6      941.9
     908.5      873.3      836.9      801.4      768.0      737.3      711.2      685.3      658.1      625.7
     582.8      522.6      433.5      306.3      179.8       76.2       16.3
    1260.4     1268.6     1266.3     1264.0     1260.2     1254.2     1246.7     1238.1     1226.9     1213.8
    1199.1     1182.3     1162.4     1140.7     1117.2     1091.8     1065.0     1036.8     1007.4      976.5
     944.6      911.1      877.4      846.1      816.2      790.2      766.5      741.4      713.2      678.3
     630.2      562.6      458.2      316.8      190.0       80.9       18.1
