IESNA:LM-63-2002
[TEST]23497     
[TESTLAB]LIGHTING SCIENCES, INC.                            
[ISSUEDATE] 3/ 4/2008
[MANUFAC]COOPER LIGHTING - CORELITE                                      
[LUMCAT]R2-WP-1N5-1C-UNV-24-T1                                                          
[LUMINAIRE]WITH WHITE INTERIOR AND FROSTED LINEAR PRISMATIC PLASTIC LENS WITH ROUND PERF   
[LAMP]ONE SYLVANIA 28 WATT T5 LAMP                                                    
[LAMPCAT]FP28/841. LUMEN RATING = 2600 LMS.                                              
[OTHER]ONE UNIVERSAL B228PUNV-C BALLAST OPERATING AT 120 VAC AND 33 WATTS              
[OTHER]LAMP COLD SPOT TEMPERATURE - 42.3 C
[OTHER]PAINT REFLECTIVITY - FIXTURE 92% TRAY 93%
TILT=NONE
1
      2600
1
37
5
1
1
  1.95
  3.92
  0.00
1
1
   33.0000
0 2.5 5 7.5 10 12.5 15 17.5 20 22.5 25 27.5 30 32.5 35 37.5
40 42.5 45 47.5 50 52.5 55 57.5 60 62.5 65 67.5 70 72.5 75
77.5 80 82.5 85 87.5 90
0 22.5 45 67.5 90
     567.1      558.9      556.6      553.1      548.1      541.7      534.0      524.9      514.6      503.0
     490.2      476.3      461.2      445.1      428.1      410.2      391.7      372.7      353.0      332.6
     311.7      290.4      268.7      246.8      224.7      201.9      179.1      156.5      133.9      111.2
      88.6       66.7       46.2       29.7       16.5        5.9        0.6
     567.1      563.2      561.2      558.0      553.5      547.6      540.4      531.9      522.2      511.1
     499.1      485.9      471.7      456.5      440.4      423.3      405.6      387.0      367.8      348.2
     327.5      306.4      285.4      264.1      242.5      221.0      199.1      177.5      156.1      135.3
     115.6       98.4       84.8       68.9       44.1       15.8        2.1
     567.1      569.1      567.6      564.9      561.7      557.3      551.5      544.9      536.9      528.3
     518.4      507.4      495.4      482.4      468.4      453.5      438.1      421.4      404.5      386.8
     368.9      350.1      331.6      313.0      294.6      275.6      256.8      238.9      224.4      213.2
     200.7      183.2      155.8      115.1       64.5       23.6        5.3
     567.1      570.4      569.4      567.5      565.4      562.2      558.0      552.4      546.8      539.8
     532.1      523.1      513.3      502.7      491.3      479.3      466.5      453.3      439.8      425.7
     411.5      396.9      381.4      365.8      350.2      335.5      324.3      315.6      306.3      293.1
     273.8      244.8      203.4      141.7       72.9       34.0        8.0
     567.1      570.8      569.6      568.6      566.9      564.1      560.4      556.4      551.2      545.0
     538.4      530.6      521.7      511.9      501.6      490.9      479.9      468.3      456.3      443.9
     431.1      417.3      403.4      389.1      375.5      364.1      355.8      348.3      338.0      322.5
     301.0      266.9      220.9      147.7       78.7       40.4        9.8
