IESNA:LM-63-2002
[TEST]23496     
[TESTLAB]LIGHTING SCIENCES, INC.                            
[ISSUEDATE] 3/ 5/2008
[MANUFAC]COOPER LIGHTING - CORELITE
[LUMCAT]R2-WP-3N5-1C-UNV-22-T1                                                          
[LUMINAIRE]WITH WHITE INTERIOR AND FROSTED LINEAR PRISMATIC PLASTIC LENS WITH ROUND PERF   
[LAMP]THREE SYLVANIA 14 WATT T5 LAMPS                                                 
[LAMPCAT]FP14/841. LUMEN RATING = 1200 LMS.                                              
[OTHER]TWO UNIVERSAL B228PUNV-C BALLASTS OPERATING AT 120 VAC AND 45 WATTS             
[OTHER]LAMP COLD SPOT TEMPERATURE - 56.2 & 51.7 & 56.6 C
[OTHER]PAINT REFLECTIVITY - FIXTURE 92% TRAY 84%
TILT=NONE
3
      1200
1
37
5
1
1
  1.95
  1.91
  0.00
1
1
   45.0000
0 2.5 5 7.5 10 12.5 15 17.5 20 22.5 25 27.5 30 32.5 35 37.5
40 42.5 45 47.5 50 52.5 55 57.5 60 62.5 65 67.5 70 72.5 75
77.5 80 82.5 85 87.5 90
0 22.5 45 67.5 90
     644.6      643.9      641.2      636.7      630.7      623.3      613.8      602.8      590.2      576.2
     560.8      544.0      525.9      506.6      486.5      465.5      443.4      420.9      397.7      374.2
     349.6      325.0      299.9      274.9      249.4      224.1      198.7      173.2      147.6      121.9
      96.8       72.7       50.8       32.9       18.1        6.5        0.9
     644.6      645.1      642.7      638.5      633.1      626.0      617.1      606.7      594.7      581.7
     567.2      551.4      534.3      515.9      496.4      476.3      455.3      433.5      411.0      388.3
     364.5      339.9      315.8      291.2      266.5      241.7      217.3      193.1      169.2      145.5
     122.2       99.5       77.3       54.3       30.8       11.5        2.2
     644.6      643.9      641.9      638.6      634.1      628.5      621.2      612.6      602.8      591.6
     579.5      565.8      551.2      535.2      518.2      500.5      482.0      462.2      441.9      421.5
     400.6      379.2      358.1      336.8      315.5      294.1      272.8      251.0      229.5      208.4
     187.0      163.4      134.5       94.1       50.4       18.4        4.0
     644.6      642.9      641.2      639.0      635.7      631.4      626.2      619.4      611.6      602.7
     592.9      581.6      569.4      555.7      541.2      526.1      510.4      493.9      477.2      460.3
     442.7      424.6      406.6      388.2      370.0      351.1      333.0      314.9      297.0      278.1
     256.2      227.9      184.4      121.4       63.3       27.0        6.5
     644.6      642.1      640.6      638.7      636.1      632.3      628.0      622.0      614.8      607.4
     598.3      588.1      576.7      564.2      550.9      537.4      522.8      508.2      492.6      476.6
     460.5      444.0      427.0      409.8      392.4      375.1      358.2      341.4      324.2      305.2
     282.9      252.9      200.9      129.0       68.5       31.6        7.4
