IESNA:LM-63-2002
[TEST]23498     
[TESTLAB]LIGHTING SCIENCES, INC.                            
[ISSUEDATE] 3/ 4/2008
[MANUFAC]COOPER LIGHTING - CORELITE
[LUMCAT]R2-WP-2N5-1C-UNV-24-T1                                                          
[LUMINAIRE]WITH WHITE INTERIOR AND FROSTED LINEAR PRISMATIC PLASTIC LENS WITH ROUND PERF   
[LAMP]TWO SYLVANIA 28 WATT T5 LAMPS                                                   
[LAMPCAT]FP28/841. LUMEN RATING = 2600 LMS.                                              
[OTHER]ONE UNIVERSAL B228PUNV-C BALLAST OPERATING AT 120 VAC AND 59 WATTS              
[OTHER]LAMP COLD SPOT TEMPERATURE - 46.7 & 49.5 C
[OTHER]PAINT REFLECTIVITY - FIXTURE 92% TRAY 93%
TILT=NONE
2
      2600
1
37
5
1
1
  1.95
  3.92
  0.00
1
1
   59.0000
0 2.5 5 7.5 10 12.5 15 17.5 20 22.5 25 27.5 30 32.5 35 37.5
40 42.5 45 47.5 50 52.5 55 57.5 60 62.5 65 67.5 70 72.5 75
77.5 80 82.5 85 87.5 90
0 22.5 45 67.5 90
    1047.8     1032.7     1028.6     1021.8     1012.4     1000.3      985.6      968.3      948.8      926.9
     902.6      876.2      848.0      817.5      785.0      751.1      716.3      680.5      643.8      605.9
     567.0      527.3      486.9      446.4      405.6      364.4      322.9      281.8      240.6      199.3
     158.7      119.0       82.6       53.4       29.7       10.9        1.6
    1047.8     1039.8     1036.0     1029.9     1021.3     1010.2      996.2      979.9      961.2      940.1
     916.7      891.3      864.3      835.2      804.6      772.2      738.4      703.4      667.5      630.8
     592.6      553.7      514.9      476.0      436.5      397.0      357.2      318.5      281.0      245.2
     211.6      182.1      158.4      129.4       85.3       32.8        5.0
    1047.8     1051.6     1048.3     1043.1     1036.7     1027.8     1016.2     1002.6      986.9      969.5
     949.5      927.3      903.6      878.2      850.7      821.8      791.4      758.9      726.1      692.2
     657.4      621.8      587.7      554.3      521.5      488.1      455.5      424.9      400.2      383.2
     364.7      336.0      289.0      216.5      119.8       44.7       10.4
    1047.8     1054.0     1051.6     1047.8     1043.1     1036.2     1027.2     1015.8     1003.8      989.2
     972.9      954.2      934.0      911.8      887.8      862.5      835.3      807.3      778.7      750.1
     722.1      693.7      665.2      636.9      608.6      582.5      561.8      549.7      539.3      522.4
     493.5      447.5      373.6      255.0      129.1       57.7       14.9
    1047.8     1054.8     1052.0     1049.7     1045.7     1039.3     1031.2     1022.3     1010.9      998.0
     983.1      966.3      946.9      925.8      903.2      879.3      853.9      828.0      802.1      776.7
     750.6      724.5      697.5      670.8      645.4      623.8      610.0      601.7      590.6      569.2
     535.9      482.2      395.7      257.2      134.8       64.4       16.8
