IESNA:LM-63-2002
[TEST]23494     
[TESTLAB]LIGHTING SCIENCES, INC.                            
[ISSUEDATE] 3/ 5/2008
[MANUFAC]COOPER LIGHTING - CORELITE
[LUMCAT]R2-WP-2N5-1C-UNV-22-T1                                                          
[LUMINAIRE]WITH WHITE INTERIOR AND FROSTED LINEAR PRISMATIC PLASTIC LENS WITH ROUND PERF   
[LAMP]TWO SYLVANIA 14 WATT T5 LAMPS                                                   
[LAMPCAT]FP14/841. LUMEN RATING = 1200 LMS.                                              
[OTHER]ONE UNIVERSAL B228PUNV-C BALLAST OPERATING AT 120 VAC AND 32 WATTS              
[OTHER]LAMP COLD SPOT TEMPERATURE - 49.0 & 48.7 C
[OTHER]PAINT REFLECTIVITY - FIXTURE 92% TRAY 84%
TILT=NONE
2
      1200
1
37
5
1
1
  1.95
  1.91
  0.00
1
1
   32.0000
0 2.5 5 7.5 10 12.5 15 17.5 20 22.5 25 27.5 30 32.5 35 37.5
40 42.5 45 47.5 50 52.5 55 57.5 60 62.5 65 67.5 70 72.5 75
77.5 80 82.5 85 87.5 90
0 22.5 45 67.5 90
     489.6      488.7      486.7      483.4      479.0      473.3      466.2      457.8      448.3      437.7
     426.1      413.5      399.7      385.1      369.8      354.0      337.4      320.2      302.8      284.9
     266.4      247.4      228.3      209.3      190.0      170.7      151.4      131.9      112.3       92.9
      74.0       55.8       39.1       25.6       14.0        4.8        0.5
     489.6      489.7      487.8      484.8      480.6      475.3      468.5      460.6      451.5      441.6
     430.6      418.5      405.4      391.5      376.7      361.4      345.4      328.8      311.8      294.6
     276.7      258.0      239.6      221.0      202.2      183.4      164.8      146.2      128.2      110.7
      93.5       76.6       60.0       42.7       24.3        8.6        1.2
     489.6      489.0      487.6      485.1      481.9      477.6      472.1      465.5      458.0      449.5
     440.2      429.9      418.7      406.5      393.5      379.8      365.7      350.6      334.9      319.2
     303.0      286.4      270.8      255.4      239.9      224.5      208.7      192.8      177.4      162.6
     148.0      131.5      110.2       78.4       41.1       14.1        2.4
     489.6      488.8      487.5      485.8      483.3      480.0      475.9      470.6      464.7      457.8
     450.4      441.6      432.2      421.7      410.5      398.8      386.4      373.3      360.2      347.7
     335.2      321.9      309.1      295.7      282.5      269.6      257.3      245.6      234.4      222.4
     208.0      188.1      154.8      100.4       50.1       19.5        3.7
     489.6      488.4      487.2      485.7      483.8      481.0      477.6      473.1      467.6      461.8
     454.8      447.0      438.2      428.6      418.3      407.5      396.1      384.3      372.9      361.8
     350.1      338.1      326.0      313.7      301.9      290.3      279.5      269.3      258.8      246.9
     232.1      210.3      168.8      105.8       53.3       23.1        4.6
