IESNA:LM-63-1995
[TEST]236P116
[TESTLAB]METALUX LABORATORIES
[ISSUEDATE]10-16-2002
[MANUFAC]COOPER LIGHTING - METALUX
[LUMCAT]I5-354T5-G-TBW-UNV-EBT2-UPL
[LUMINAIRE]I5 SERIES LUMINAIRE WITH HIGH REFLECTANCE WHITE WIDE
[MORE]DISTRIBUTION REFLECTOR, UPLIGHT, AND THIN WHITE LOUVER
[LAMP]THREE 54-WATT T5HO - 4400 LUMENS EA
[BALLAST]TWO UNIVERSAL B254PUNV-D
[OTHER]TOTAL INPUT WATTS = 179.0 AT 120.0 VOLTS
TILT=NONE
 3     4400.   1.00  73  5 1  1  0.85  3.83  0.19
1.000 1.000   179.
0 2.5 5 7.5 10 12.5 15 17.5 20 22.5 25 27.5 30 32.5 35 37.5 40 42.5 45 47.5 50
 52.5 55 57.5 60 62.5 65 67.5 70 72.5 75 77.5 80 82.5 85 87.5 90 92.5 95 97.5
 100 102.5 105 107.5 110 112.5 115 117.5 120 122.5 125 127.5 130 132.5 135
 137.5 140 142.5 145 147.5 150 152.5 155 157.5 160 162.5 165 167.5 170 172.5
 175 177.5 180
0 22.5 45 67.5 90
4024 4001 3973 3929 3869 3798 3716 3625 3525 3419 3302 3180 3052 2919 2778 2635
 2487 2334 2175 2010 1845 1674 1501 1327 1150 975 797 637 534 450 369 293 223
 157 95 37 1 5 15 31 50 73 100 132 167 205 243 281 320 358 396 433 470 508 542
 577 611 643 674 704 732 758 782 805 826 844 860 875 887 897 905 909 914
4024 4004 3976 3933 3872 3796 3709 3612 3506 3391 3268 3137 3002 2864 2718 2568
 2415 2255 2094 1931 1771 1611 1455 1301 1151 1002 851 695 564 488 417 330 246
 180 121 66 32 18 16 15 16 18 21 23 28 34 47 71 106 166 206 248 293 339 383 426
 469 510 551 592 632 672 711 748 783 814 841 863 880 893 904 911 914
4024 4023 3996 3947 3881 3802 3710 3609 3501 3389 3268 3140 3011 2886 2761 2639
 2516 2396 2274 2146 2007 1857 1724 1603 1488 1330 1153 974 797 653 526 438 338
 241 159 109 71 47 33 26 22 20 20 22 26 28 31 30 29 30 33 37 49 76 108 182 256
 309 365 422 480 534 584 633 680 726 771 815 854 883 900 912 914
4024 4026 3999 3951 3889 3814 3731 3640 3541 3437 3340 3247 3158 3069 2979 2882
 2775 2665 2552 2460 2369 2269 2117 1940 1763 1583 1418 1293 1175 1046 902 652
 432 251 191 143 104 73 51 36 26 22 21 21 22 25 30 32 35 35 29 26 26 29 33 46
 75 111 201 288 350 417 484 549 608 663 716 769 820 867 895 910 914
4024 4015 3988 3937 3876 3808 3737 3654 3558 3468 3392 3319 3248 3175 3099 3012
 2920 2825 2756 2688 2609 2474 2298 2122 1949 1787 1660 1553 1432 1292 1018 691
 394 196 134 75 23 17 17 16 17 18 20 20 21 23 28 31 33 37 34 25 22 23 25 30 44
 75 115 223 305 373 443 514 579 639 694 748 803 852 887 904 914
           