IESNA:LM-63-2002
[TEST]23499     
[TESTLAB]LIGHTING SCIENCES, INC.                            
[ISSUEDATE] 3/ 4/2008
[MANUFAC]COOPER LIGHTING - CORELITE
[LUMCAT]R2-WR-2N5-1C-UNV-24-T1                                                          
[LUMINAIRE]WHITE INTERIOR AND FROSTED LINEAR PRISMATIC PLASTIC LENS WITH RECTANGULAR PERF  
[LAMP]TWO SYLVANIA 28 WATT T5 LAMPS                                                   
[LAMPCAT]FP28/841. LUMEN RATING = 2600 LMS.                                              
[OTHER]ONE UNIVERSAL B228PUNV-C BALLAST OPERATING AT 120 VAC AND 59 WATTS              
[OTHER]LAMP COLD SPOT TEMPERATURE - 51.3 & 45.6 C
[OTHER]PAINT REFLECTIVITY - FIXTURE 92% TRAY 93%
TILT=NONE
2
      2600
1
37
5
1
1
  1.95
  3.92
  0.00
1
1
   59.0000
0 2.5 5 7.5 10 12.5 15 17.5 20 22.5 25 27.5 30 32.5 35 37.5
40 42.5 45 47.5 50 52.5 55 57.5 60 62.5 65 67.5 70 72.5 75
77.5 80 82.5 85 87.5 90
0 22.5 45 67.5 90
     916.9      903.8      900.9      896.2      889.5      880.7      870.0      857.4      842.7      826.1
     807.6      787.4      765.5      742.2      717.1      690.6      663.2      634.8      605.3      574.4
     542.6      509.7      476.0      442.1      407.5      372.3      336.6      300.3      264.1      227.3
     190.3      153.6      116.9       81.3       46.8       17.7        2.2
     916.9      910.0      907.2      902.7      896.4      887.9      877.2      864.7      850.6      834.4
     816.6      796.8      775.7      752.9      728.6      702.7      675.7      647.4      618.3      588.4
     557.0      524.6      492.0      458.7      424.9      390.7      356.4      322.7      290.1      257.6
     225.4      196.9      174.1      144.0       94.3       35.7        4.5
     916.9      920.0      917.2      912.8      907.4      899.9      890.5      879.4      866.7      852.4
     836.2      818.3      799.4      778.6      756.1      732.2      707.0      680.1      652.7      624.1
     595.1      565.6      537.5      509.3      480.9      451.0      422.2      396.1      378.0      369.0
     357.0      330.4      283.8      209.4      110.1       34.5        6.0
     916.9      922.5      919.9      915.8      911.0      904.6      896.4      886.3      876.2      863.8
     850.0      833.9      816.7      797.6      776.8      754.9      731.3      707.5      683.6      660.0
     636.0      611.0      585.6      560.3      536.4      516.3      504.8      503.6      502.7      492.3
     467.6      423.7      349.3      230.5      104.1       32.5        7.3
     916.9      923.1      919.8      916.4      911.7      905.5      897.8      889.8      879.9      868.3
     854.9      839.8      822.7      804.0      784.1      763.6      742.6      721.1      699.4      676.9
     653.4      629.5      605.5      582.9      563.4      550.7      548.6      551.3      547.9      532.7
     503.1      449.5      361.9      221.5       99.3       31.5        7.3
