IESNA:LM-63-1995
[TEST]     23306
[MANUFAC]COOPER LIGHTING - CORELITE                                      
[LUMCAT]R2-WL-1N5-24                                                                    
[LUMINAIRE]WITH WHITE INTERIOR AND FROSTED LINEAR PRISMATIC PLASTIC LENS                   
[LAMP]ONE SYLVANIA 28 WATT T5 LAMP                                                    
[LAMPCAT]FP28/841. LUMEN RATING = 2600 LMS.                                              
[OTHER]ONE UNIVERSAL B228PUNV-C BALLAST OPERATING AT 120 VAC AND 33 WATTS              
[OTHER]LAMP COLD SPOT TEMPERATURE - 47.4 C
[OTHER]PAINT REFLECTIVITY - FIXTURE 92% TRAY 93%
TILT=NONE
1
      2600
1
37
5
1
1
  1.95
  3.92
  0.00
1
1
   33.0000
0 2.5 5 7.5 10 12.5 15 17.5 20 22.5 25 27.5 30 32.5 35 37.5
40 42.5 45 47.5 50 52.5 55 57.5 60 62.5 65 67.5 70 72.5 75
77.5 80 82.5 85 87.5 90
0 22.5 45 67.5 90
     668.9      659.8      657.5      653.6      648.1      640.9      632.2      621.9      610.1      596.6
     581.9      565.8      548.4      529.7      509.8      489.4      467.9      445.7      422.8      399.3
     375.3      351.0      326.5      301.7      276.6      251.4      226.3      201.1      176.2      151.8
     128.0      104.4       81.4       59.1       37.7       17.1        3.1
     668.9      664.3      662.1      658.8      653.8      647.3      639.4      629.8      619.0      606.8
     593.3      578.3      562.1      544.7      526.1      506.6      486.3      465.0      443.1      421.0
     397.7      373.5      349.1      324.4      299.9      275.0      250.4      226.2      202.0      178.6
     156.6      137.1      117.5       93.0       62.9       29.3        6.5
     668.9      671.7      670.3      667.7      664.3      659.7      653.7      646.5      638.1      628.8
     618.2      606.1      593.4      579.4      564.4      548.6      532.0      513.5      494.7      475.5
     455.3      434.5      413.6      391.7      370.0      347.9      326.7      307.5      289.1      270.7
     248.4      221.7      189.0      143.9       94.2       43.8        9.8
     668.9      672.6      671.7      669.9      667.8      664.9      660.9      655.5      650.3      643.5
     636.5      627.9      618.6      608.2      597.0      585.3      572.5      559.0      545.1      530.5
     514.8      498.5      481.0      463.4      447.0      431.0      415.6      399.4      381.4      359.7
     332.1      298.0      251.1      186.6      121.0       56.2       12.0
     668.9      673.3      672.1      671.2      669.6      667.1      663.9      660.4      655.7      650.3
     644.3      637.5      629.6      620.7      611.4      601.4      590.8      579.6      567.4      554.4
     540.1      525.2      509.9      494.7      480.2      466.1      451.7      436.1      417.0      393.6
     364.2      326.2      270.9      199.8      131.6       62.2       12.6
