IESNA:LM-63-1995
[TEST]     23296
[MANUFAC]COOPER LIGHTING - CORELITE                                      
[LUMCAT]R1-WL-2N5-24                                                                    
[LUMINAIRE]WITH WHITE INTERIOR AND FROSTED LINEAR PRISMATIC PLASTIC LENS                   
[LAMP]TWO SYLVANIA 28 WATT T5 LAMPS                                                   
[LAMPCAT]FP28/841. LUMEN RATING = 2600 LMS.                                              
[OTHER]ONE UNIVERSAL B228PUNV-C BALLAST OPERATING AT 120 VAC AND 62 WATTS              
[OTHER]LAMP COLD SPOT TEMPERATURE - 50.7 & 50.6 C
[OTHER]PAINT REFLECTIVITY - FIXTURE 91% TRAY 94%
TILT=NONE
2
      2600
1
37
5
1
1
  1.95
  3.92
  0.00
1
1
   62.0000
0 2.5 5 7.5 10 12.5 15 17.5 20 22.5 25 27.5 30 32.5 35 37.5
40 42.5 45 47.5 50 52.5 55 57.5 60 62.5 65 67.5 70 72.5 75
77.5 80 82.5 85 87.5 90
0 22.5 45 67.5 90
    1212.3     1194.1     1189.6     1182.1     1171.2     1157.3     1140.3     1120.0     1096.8     1071.2
    1042.6     1011.5      978.2      942.4      904.4      865.2      824.7      783.1      740.3      696.6
     652.5      607.6      562.4      517.3      472.0      427.9      384.2      340.2      297.4      255.2
     213.4      173.1      134.3       97.1       61.9       28.2        3.7
    1212.3     1202.7     1198.5     1191.6     1181.7     1169.0     1153.0     1134.2     1112.3     1087.9
    1061.0     1031.2      999.4      965.6      929.6      892.2      853.4      812.5      770.1      728.1
     684.2      639.1      595.4      551.6      507.5      464.5      422.1      380.6      340.3      301.3
     265.3      234.1      203.3      164.6      111.9       48.8        6.9
    1212.3     1217.5     1214.0     1208.3     1200.7     1190.5     1177.5     1161.9     1143.9     1124.1
    1101.6     1076.4     1049.2     1019.9      988.0      954.4      919.5      882.5      844.3      806.4
     768.9      730.0      690.4      651.0      612.2      573.2      537.4      506.7      479.1      450.9
     418.8      377.2      320.7      239.8      140.3       56.4        7.8
    1212.3     1220.4     1217.8     1213.6     1208.4     1201.0     1190.9     1178.4     1165.3     1148.8
    1130.6     1110.5     1088.0     1062.4     1036.4     1009.2      978.9      948.9      918.7      886.0
     851.7      818.2      783.5      749.3      718.1      690.5      664.8      640.3      613.2      581.2
     539.3      481.1      395.9      277.8      156.3       58.8        8.6
    1212.3     1221.1     1218.2     1215.4     1211.0     1204.2     1195.2     1185.4     1173.7     1159.1
    1142.8     1125.5     1104.9     1080.8     1056.3     1031.9     1005.3      976.9      949.2      918.8
     885.9      854.2      822.5      790.5      762.4      738.0      714.1      688.8      660.2      625.0
     577.3      511.1      408.6      279.0      159.7       60.4        9.5
